{"class":{"code":"IMP","display":"inpatient encounter","system":"http://terminology.hl7.org/CodeSystem/v3-ActCode"},"id":"e1","resourceType":"Encounter","status":"finished","subject":{"reference":"Patient/p1"},"participant":[{"type":[{"coding":[{"system":"http://terminology.hl7.org/CodeSystem/v3-ParticipationType","code":"PART"}]}],"individual":{"reference":"PractitionerRole/practrole1"}}]}
{"resourceType":"Patient","id":"p1","active":true,"name":[{"family":"Goncalves","given":["Dercy"]}],"gender":"female","birthDate":"0001-05-27","address":[{"line":["Rua dos Bobos #0"],"city":"Campinas","state":"SP","postalCode":"13000","country":"BR"}]}
{"resourceType":"Patient","id":"p2","active":true,"name":[{"family":"Santos","given":["Silvio"]}],"gender":"male","birthDate":"1900-01-01","address":[{"line":["Rua dos Bobos #1"],"city":"Campinas","state":"SP","postalCode":"13000","country":"BR"}]}
{"resourceType":"Practitioner","id":"pract1","name":[{"family":"House","given":["Greg"],"suffix":["MD"]}],"address":[{"use":"work","line":["Galapagosweg 91"],"city":"Campinas","postalCode":"13000","country":"BRZ"}],"gender":"male","birthDate":"1971-11-07"}
{"resourceType":"PractitionerRole","id":"practrole1","active":true,"period":{"start":"2012-01-01","end":"2030-03-31"},"practitioner":{"reference":"Practitioner/p1","display":"Greg House MD"},"specialty":[{"coding":[{"system":"http://snomed.info/sct","code":"408443003","display":"General medical practice"}]}],"availableTime":[{"daysOfWeek":["mon","tue","wed"],"availableStartTime":"09:00:00","availableEndTime":"16:30:00"}]}
